Folder: corrosionR/inst/extdata

Note: README.md
# corrosionR

<!-- badges: start -->
<!-- badges: end -->

The *Electrochemical Data Analysis for Reproducible Research package* 
provides a working environment for the analysis of data from corrosion 
measurements of equipment that provides its own proprietary software, but 
does not offer the flexibility a researcher would want, nor does it 
accommodate a reproducible workflow.

## Installation

You can install the released version of corrosionR from [GITHUB](https://github.com/mendivilg/corrosionR) with:

``` r
install.packages("devtools")
library(devtools)
install_github("mendivilg/corrosionR")

```

## Example

This is a basic example which shows you how to solve a common problem:

``` r
library(corrosionR)
## basic example code
openCOR("path/file.cor")
```

## How to cite

``` r
citation("corrosionR")
```

File: CV_Framework_version7_06.DTA
EXPLAIN
TAG	CV
TITLE	LABEL	Cyclic Voltammetry	Test &Identifier
DATE	LABEL	4/9/2019	Date
TIME	LABEL	11:45:02	Time
NOTES	NOTES	1	&Notes...

PSTAT	PSTAT	REF3000-34126	Potentiostat
VINIT	POTEN	-1,80000E+000	F	Initial &E (V)
VLIMIT1	POTEN	-1,80000E+000	F	Scan Limit &1 (V)
VLIMIT2	POTEN	0,00000E+000	F	Scan Limit &2 (V)
VFINAL	POTEN	-1,80000E+000	F	Final &E (V)
SCANRATE	QUANT	4,99999E+001	&Scan Rate (mV/s)
STEPSIZE	QUANT	1,00000E+000	St&ep Size (mV)
CYCLES	IQUANT	1	C&ycles (#)
IMODE	SELECTOR	0	I/E Range &Mode
IRANGE	QUANT	3,00000E-001	&Max Current (mA)
AREA	QUANT	1,00000E+000	Electrode &Area (cm^2)
ELECTRODETYPE	SELECTOR	0	Electrode Type
STRIPPING	TOGGLE	F	Used for Stripping
POLARITY	TOGGLE	F	Signal Polarity
CONDIT	TWOPARAM	F	1,50000E+001	0,00000E+000	Conditionin&g	Time(s)	E(V)
DELAY	TWOPARAM	F	3,00000E+001	0,00000E+000	Init. De&lay	Time(s)	Stab.(mV/s)
EQDELAY	QUANT	5,00000E+000	Equil. &Time (s)
IRCOMP	SELECTOR	0	IRCom&p
PFCOR	QUANT	5,00000E+001	PF Corr. (ohm)
SAMPLINGMODE	SELECTOR	1	Sampling &Mode
EOC	QUANT	0	Open Circuit (V)
PSTATMODEL	IQUANT	5	Pstat Model
PSTATSECTION	LABEL	REF3000-34126	Pstat Section
PSTATSERIALNO	LABEL	34126	Pstat Serial Number
CTRLMODE	IQUANT	1	Control Mode
ELECTROMETER	IQUANT	0	RE=0 or CS=1
IESTAB	IQUANT	2	I/E Stability
CASPEED	IQUANT	4	Control Amp Speed
CONVENTION	IQUANT	1	Current Convention
ICHRANGE	IQUANT	2	Ich Range
ICHRANGEMODE	TOGGLE	F	Ich Auto Range
ICHOFFSETENABLE	TOGGLE	F	Ich Offset Enable
ICHOFFSET	QUANT	0	Ich Offset (V)
ICHFILTER	IQUANT	2	Ich Filter
VCHRANGE	IQUANT	2	Vch Range
VCHRANGEMODE	TOGGLE	F	Vch Auto Range
VCHOFFSETENABLE	TOGGLE	F	Vch Offset Enable
VCHOFFSET	QUANT	0	Vch Offset (V)
VCHFILTER	IQUANT	2	Vch Filter
ACHRANGE	IQUANT	2	Ach Range
ACHOFFSETENABLE	TOGGLE	F	Ach Offset Enable
ACHOFFSET	QUANT	0	Ach Offset (V)
ACHFILTER	IQUANT	1	Ach Filter
IERANGELOWERLIMIT	IQUANT	2	I/E Range Lower Limit
IERANGEMODE	TOGGLE	T	I/E AutoRange
IERANGE	IQUANT	9	I/E Range
POSFEEDENABLE	TOGGLE	F	Positive Feedback IR Comp
POSFEEDRESISTANCE	QUANT	0	Positive Feedback Resistance (ohm)
ACHSELECT	IQUANT	0	Ach Select
SENSECABLEID	IQUANT	14	Sense Cable ID
PWRCABLEID	IQUANT	7	Power Cable ID
DCCALDATE	LABEL	5/15/2019	DC Calibration Date
ACCALDATE	LABEL	5/15/2019	AC Calibration Date
THERMOSELECT	IQUANT	1	Thermo Select
FRAMEWORKVERSION	QUANT	7,06	Framework Version
INSTRUMENTVERSION	LABEL	4.30	Instrument Version
COMPLIANCEVOLTAGE	IQUANT	0	Compliance Voltage
CURVE1	TABLE
	Pt	T	Vf	Im	Vu	Sig	Ach	IERange	Over	Temp
	#	s	V vs. Ref.	A	V	V	V	#	bits	deg C
	0	0,02	-1,79758E+000	-3,28491E-003	0,00000E+000	-1,80000E+000	1,91118E-004	9	....ih..i.a	-327,61
	37	0,76	-1,76099E+000	-3,19286E-003	0,00000E+000	-1,76300E+000	1,00285E-004	10	..........a	-327,61
	74	1,5	-1,72401E+000	-2,67900E-003	0,00000E+000	-1,72600E+000	1,29452E-004	10	..........a	-327,61
	111	2,24	-1,68684E+000	-2,21982E-003	0,00000E+000	-1,68900E+000	1,36952E-004	9	..........a	-327,61
	148	2,98	-1,64989E+000	-1,80378E-003	0,00000E+000	-1,65200E+000	1,35285E-004	9	..........a	-327,61
	185	3,72	-1,61297E+000	-1,45347E-003	0,00000E+000	-1,61500E+000	7,69515E-005	9	..........a	-327,61
	222	4,46	-1,57606E+000	-1,15351E-003	0,00000E+000	-1,57800E+000	1,07785E-004	9	..........a	-327,61
	259	5,2	-1,53909E+000	-9,06028E-004	0,00000E+000	-1,54100E+000	8,44516E-005	9	..........a	-327,61
	296	5,94	-1,50217E+000	-7,12554E-004	0,00000E+000	-1,50400E+000	1,13618E-004	9	..........a	-327,61
	333	6,68	-1,46523E+000	-5,62743E-004	0,00000E+000	-1,46700E+000	1,29452E-004	9	..........a	-327,61
	370	7,42	-1,42827E+000	-4,55727E-004	0,00000E+000	-1,43000E+000	9,44515E-005	9	..........a	-327,61
	407	8,16	-1,39130E+000	-3,74850E-004	0,00000E+000	-1,39300E+000	1,27785E-004	9	..........a	-327,61
	444	8,9	-1,35436E+000	-3,15692E-004	0,00000E+000	-1,35600E+000	1,01952E-004	9	..........a	-327,61
	481	9,64	-1,31737E+000	-2,69421E-004	0,00000E+000	-1,31900E+000	1,13618E-004	9	..........a	-327,61
	518	10,38	-1,28021E+000	-2,29256E-004	0,00000E+000	-1,28200E+000	1,36118E-004	8	..........a	-327,61
	555	11,12	-1,24331E+000	-1,96489E-004	0,00000E+000	-1,24500E+000	1,44452E-004	8	..........a	-327,61
	592	11,86	-1,20635E+000	-1,64974E-004	0,00000E+000	-1,20800E+000	9,02849E-005	8	..........a	-327,61
	629	12,6	-1,16946E+000	-1,34141E-004	0,00000E+000	-1,17100E+000	1,02785E-004	8	..........a	-327,61
	666	13,34	-1,13252E+000	-1,00425E-004	0,00000E+000	-1,13400E+000	1,01952E-004	8	..........a	-327,61
	703	14,08	-1,09561E+000	-5,53773E-005	0,00000E+000	-1,09700E+000	1,34452E-004	8	..........a	-327,61
	740	14,82	-1,05884E+000	1,28496E-005	0,00000E+000	-1,06000E+000	1,34452E-004	7	..........a	-327,61
	777	15,56	-1,02183E+000	6,86764E-005	0,00000E+000	-1,02300E+000	9,27849E-005	8	..........a	-327,61
	814	16,3	-9,84865E-001	8,23699E-005	0,00000E+000	-9,86000E-001	1,68618E-004	8	..........a	-327,61
	851	17,04	-9,47886E-001	6,03223E-005	0,00000E+000	-9,49000E-001	9,94516E-005	8	..........a	-327,61
	888	17,78	-9,10921E-001	5,06786E-005	0,00000E+000	-9,12000E-001	1,42785E-004	8	..........a	-327,61
	925	18,52	-8,73919E-001	5,06779E-005	0,00000E+000	-8,75000E-001	1,26118E-004	8	..........a	-327,61
	962	19,26	-8,36996E-001	5,45428E-005	0,00000E+000	-8,38000E-001	1,51118E-004	8	..........a	-327,61
	999	20	-7,99969E-001	5,97195E-005	0,00000E+000	-8,01000E-001	1,06952E-004	8	..........a	-327,61
	1036	20,74	-7,63050E-001	6,14682E-005	0,00000E+000	-7,64000E-001	7,69515E-005	8	..........a	-327,61
	1073	21,48	-7,26040E-001	5,97094E-005	0,00000E+000	-7,27000E-001	1,41118E-004	8	..........a	-327,61
	1110	22,22	-6,89107E-001	5,81078E-005	0,00000E+000	-6,90000E-001	8,94516E-005	8	..........a	-327,61
	1147	22,96	-6,52126E-001	5,78191E-005	0,00000E+000	-6,53000E-001	1,37785E-004	8	..........a	-327,61
	1184	23,7	-6,15150E-001	5,89322E-005	0,00000E+000	-6,16000E-001	9,77849E-005	8	..........a	-327,61
	1221	24,44	-5,78189E-001	6,08055E-005	0,00000E+000	-5,79000E-001	1,20285E-004	8	..........a	-327,61
	1258	25,18	-5,41229E-001	6,31220E-005	0,00000E+000	-5,42000E-001	1,17785E-004	8	..........a	-327,61
	1295	25,92	-5,04285E-001	6,56079E-005	0,00000E+000	-5,05000E-001	1,51952E-004	8	..........a	-327,61
	1332	26,66	-4,67287E-001	6,75218E-005	0,00000E+000	-4,68000E-001	1,47785E-004	8	..........a	-327,61
	1369	27,4	-4,30345E-001	6,96523E-005	0,00000E+000	-4,31000E-001	8,86182E-005	8	..........a	-327,61
	1406	28,14	-3,93362E-001	7,21806E-005	0,00000E+000	-3,94000E-001	8,44516E-005	8	..........a	-327,61
	1443	28,88	-3,56418E-001	7,53777E-005	0,00000E+000	-3,57000E-001	1,08618E-004	8	..........a	-327,61
	1480	29,62	-3,19450E-001	7,89521E-005	0,00000E+000	-3,20000E-001	1,46118E-004	8	..........a	-327,61
	1517	30,36	-2,82486E-001	8,26595E-005	0,00000E+000	-2,83000E-001	1,15285E-004	8	..........a	-327,61
	1554	31,1	-2,45537E-001	8,69197E-005	0,00000E+000	-2,46000E-001	1,38618E-004	8	..........a	-327,61
	1591	31,84	-2,08585E-001	9,21944E-005	0,00000E+000	-2,09000E-001	9,19516E-005	8	..........a	-327,61
	1628	32,58	-1,71619E-001	9,86136E-005	0,00000E+000	-1,72000E-001	1,25285E-004	8	..........a	-327,61
	1665	33,32	-1,34657E-001	1,05957E-004	0,00000E+000	-1,35000E-001	1,49452E-004	8	..........a	-327,61
	1702	34,06	-9,77062E-002	1,14703E-004	0,00000E+000	-9,80000E-002	1,10285E-004	8	..........a	-327,61
	1739	34,8	-6,07362E-002	1,22851E-004	0,00000E+000	-6,10000E-002	1,39452E-004	8	..........a	-327,61
[...]
	2331	46,64	-5,30401E-001	1,94077E-005	0,00000E+000	-5,31000E-001	1,30285E-004	7	..........a	-327,61
	2368	47,38	-5,67295E-001	1,52453E-005	0,00000E+000	-5,68000E-001	1,11952E-004	7	..........a	-327,61
	2405	48,12	-6,04222E-001	1,15420E-005	0,00000E+000	-6,05000E-001	1,01118E-004	7	..........a	-327,61
	2442	48,86	-6,41122E-001	7,61608E-006	0,00000E+000	-6,42000E-001	8,52849E-005	7	..........a	-327,61
	2479	49,6	-6,78046E-001	3,74653E-006	0,00000E+000	-6,79000E-001	1,51118E-004	7	..........a	-327,61
	2516	50,34	-7,14981E-001	1,14502E-007	0,00000E+000	-7,16000E-001	9,27849E-005	7	..........a	-327,61
	2553	51,08	-7,51889E-001	-3,61490E-006	0,00000E+000	-7,53000E-001	8,02849E-005	7	..........a	-327,61
	2590	51,82	-7,88802E-001	-7,57526E-006	0,00000E+000	-7,90000E-001	9,86182E-005	7	..........a	-327,61
	2627	52,56	-8,25755E-001	-1,19126E-005	0,00000E+000	-8,27000E-001	8,86182E-005	7	..........a	-327,61
	2664	53,3	-8,62679E-001	-1,67369E-005	0,00000E+000	-8,64000E-001	9,69516E-005	7	..........a	-327,61
	2701	54,04	-8,99544E-001	-2,19855E-005	0,00000E+000	-9,01000E-001	1,02785E-004	7	..........a	-327,61
	2738	54,78	-9,36793E-001	-2,72696E-005	0,00000E+000	-9,38000E-001	1,34452E-004	8	..........a	-327,61
	2775	55,52	-9,73733E-001	-3,25207E-005	0,00000E+000	-9,75000E-001	1,11952E-004	8	..........a	-327,61
	2812	56,26	-1,01069E+000	-3,83479E-005	0,00000E+000	-1,01200E+000	1,43618E-004	8	..........a	-327,61
	2849	57	-1,04767E+000	-4,89901E-005	0,00000E+000	-1,04900E+000	1,06118E-004	8	..........a	-327,61
	2886	57,74	-1,08460E+000	-7,13939E-005	0,00000E+000	-1,08600E+000	8,61182E-005	8	..........a	-327,61
	2923	58,48	-1,12153E+000	-1,06375E-004	0,00000E+000	-1,12300E+000	1,00285E-004	8	..........a	-327,61
	2960	59,22	-1,15843E+000	-1,51299E-004	0,00000E+000	-1,16000E+000	1,10285E-004	8	..........a	-327,61
	2997	59,96	-1,19533E+000	-2,09706E-004	0,00000E+000	-1,19700E+000	9,77849E-005	8	..........a	-327,61
	3034	60,7	-1,23224E+000	-2,60951E-004	0,00000E+000	-1,23400E+000	1,23618E-004	8	..........a	-327,61
	3071	61,44	-1,26921E+000	-2,64329E-004	0,00000E+000	-1,27100E+000	1,26952E-004	8	..........a	-327,61
	3108	62,18	-1,30639E+000	-2,87963E-004	0,00000E+000	-1,30800E+000	9,69516E-005	9	..........a	-327,61
	3145	62,92	-1,34337E+000	-3,26170E-004	0,00000E+000	-1,34500E+000	1,51952E-004	9	..........a	-327,61
	3182	63,66	-1,38032E+000	-3,75137E-004	0,00000E+000	-1,38200E+000	1,09452E-004	9	..........a	-327,61
	3219	64,4	-1,41725E+000	-4,37833E-004	0,00000E+000	-1,41900E+000	9,52849E-005	9	..........a	-327,61
	3256	65,14	-1,45424E+000	-5,22420E-004	0,00000E+000	-1,45600E+000	7,61182E-005	9	..........a	-327,61
	3293	65,88	-1,49117E+000	-6,34085E-004	0,00000E+000	-1,49300E+000	1,20285E-004	9	..........a	-327,61
	3330	66,62	-1,52816E+000	-7,71479E-004	0,00000E+000	-1,53000E+000	7,27849E-005	9	..........a	-327,61
	3367	67,36	-1,56509E+000	-9,49277E-004	0,00000E+000	-1,56700E+000	8,27849E-005	9	..........a	-327,61
	3404	68,1	-1,60202E+000	-1,16737E-003	0,00000E+000	-1,60400E+000	1,06952E-004	9	..........a	-327,61
	3441	68,84	-1,63896E+000	-1,43036E-003	0,00000E+000	-1,64100E+000	1,35285E-004	9	..........a	-327,61
	3478	69,58	-1,67589E+000	-1,72901E-003	0,00000E+000	-1,67800E+000	1,55285E-004	9	..........a	-327,61
	3515	70,32	-1,71283E+000	-2,07717E-003	0,00000E+000	-1,71500E+000	1,19452E-004	9	..........a	-327,61
	3552	71,06	-1,74974E+000	-2,48496E-003	0,00000E+000	-1,75200E+000	1,11952E-004	9	..........a	-327,61
	3589	71,8	-1,78698E+000	-2,94076E-003	0,00000E+000	-1,78900E+000	1,00285E-004	10	..........a	-327,61
	3600	72,02	-1,79792E+000	-3,08561E-003	0,00000E+000	-1,80000E+000	1,11952E-004	10	..........a	-327,61

File: impedancia.DTA
EXPLAIN
TAG	EISPOT
TITLE	LABEL	Potentiostatic EIS	Test &Identifier
DATE	LABEL	28/6/2019	Date
TIME	LABEL	12:33:35	Time
NOTES	NOTES	1	&Notes...

PSTAT	PSTAT	REF3000-34126	Potentiostat
VDC	POTEN	0,00000E+000	T	DC &Voltage (V)
FREQINIT	QUANT	5,00000E+004	Initial Fre&q. (Hz)
FREQFINAL	QUANT	1,00000E-002	Final Fre&q. (Hz)
PTSPERDEC	QUANT	1,00000E+001	Points/&decade
VAC	QUANT	1,00000E+001	AC &Voltage (mV rms)
AREA	QUANT	1,00000E+000	&Area (cm^2)
CONDIT	TWOPARAM	F	1,50000E+001	0,00000E+000	Conditionin&g	Time(s)	E(V)
DELAY	TWOPARAM	T	3,60000E+003	0,00000E+000	Init. De&lay	Time(s)	Stab.(mV/s)
SPEED	SELECTOR	1	&Optimize for:
ZGUESS	QUANT	1,00000E+000	E&stimated Z (ohms)
OCVCURVE	TABLE	1434
	Pt	T	Vf	Vm	Ach	Over	Temp
	#	s	V vs. Ref.	V	V	bits	deg C
	0	2,51	-9,56958E-001	-9,56958E-001	1,71525E-004	..........a	-327,61
	11	30,12	-9,56916E-001	-9,56901E-001	1,65018E-004	..........a	-327,61
	22	57,73	-9,56866E-001	-9,56847E-001	1,60352E-004	..........a	-327,61
	33	85,34	-9,56834E-001	-9,56829E-001	1,56405E-004	..........a	-327,61
	44	112,95	-9,56829E-001	-9,56822E-001	1,54738E-004	..........a	-327,61
	55	140,56	-9,56829E-001	-9,56832E-001	1,59638E-004	..........a	-327,61
	66	168,17	-9,56831E-001	-9,56836E-001	1,55705E-004	..........a	-327,61
	77	195,78	-9,56838E-001	-9,56840E-001	1,62645E-004	..........a	-327,61
	88	223,39	-9,56836E-001	-9,56840E-001	1,66458E-004	..........a	-327,61
	99	251	-9,56844E-001	-9,56843E-001	1,64525E-004	..........a	-327,61
	110	278,61	-9,56841E-001	-9,56847E-001	1,66712E-004	..........a	-327,61
	121	306,22	-9,56846E-001	-9,56842E-001	1,71365E-004	..........a	-327,61
	132	333,83	-9,56841E-001	-9,56835E-001	1,69112E-004	..........a	-327,61
	143	361,44	-9,56823E-001	-9,56826E-001	1,67472E-004	..........a	-327,61
	154	389,05	-9,56815E-001	-9,56810E-001	1,64965E-004	..........a	-327,61
	165	416,66	-9,56819E-001	-9,56823E-001	1,59092E-004	..........a	-327,61
	176	444,27	-9,56819E-001	-9,56815E-001	1,64372E-004	..........a	-327,61
	187	471,88	-9,56806E-001	-9,56798E-001	1,58678E-004	..........a	-327,61
	198	499,49	-9,56796E-001	-9,56792E-001	1,57932E-004	..........a	-327,61
	209	527,1	-9,56770E-001	-9,56772E-001	1,61492E-004	..........a	-327,61
	220	554,71	-9,56762E-001	-9,56750E-001	1,56238E-004	..........a	-327,61
	231	582,32	-9,56737E-001	-9,56730E-001	1,54398E-004	..........a	-327,61
	242	609,93	-9,56660E-001	-9,56667E-001	1,40045E-004	..........a	-327,61
	253	637,54	-9,56706E-001	-9,56699E-001	1,49478E-004	..........a	-327,61
	264	665,15	-9,56683E-001	-9,56673E-001	1,49285E-004	..........a	-327,61
	275	692,76	-9,56651E-001	-9,56647E-001	1,39885E-004	..........a	-327,61
	286	720,37	-9,56627E-001	-9,56617E-001	1,45978E-004	..........a	-327,61
	297	747,98	-9,56577E-001	-9,56575E-001	1,43792E-004	..........a	-327,61
	308	775,59	-9,56552E-001	-9,56546E-001	1,44118E-004	..........a	-327,61
	319	803,2	-9,56525E-001	-9,56514E-001	1,53025E-004	..........a	-327,61
	330	830,81	-9,56498E-001	-9,56496E-001	1,49538E-004	..........a	-327,61
	341	858,42	-9,56475E-001	-9,56463E-001	1,52892E-004	..........a	-327,61
	352	886,03	-9,56441E-001	-9,56434E-001	1,49205E-004	..........a	-327,61
	363	913,64	-9,56418E-001	-9,56410E-001	1,56865E-004	..........a	-327,61
	374	941,25	-9,56399E-001	-9,56394E-001	1,51532E-004	..........a	-327,61
	385	968,86	-9,56381E-001	-9,56372E-001	1,43805E-004	..........a	-327,61
	396	996,47	-9,56370E-001	-9,56370E-001	1,46465E-004	..........a	-327,61
	407	1024,08	-9,56361E-001	-9,56357E-001	1,44712E-004	..........a	-327,61
	418	1051,69	-9,56354E-001	-9,56352E-001	1,45892E-004	..........a	-327,61
	429	1079,3	-9,56350E-001	-9,56351E-001	1,52352E-004	..........a	-327,61
	440	1106,91	-9,56348E-001	-9,56342E-001	1,38032E-004	..........a	-327,61
	451	1134,52	-9,56336E-001	-9,56333E-001	1,36772E-004	..........a	-327,61
	462	1162,13	-9,56325E-001	-9,56328E-001	1,36985E-004	..........a	-327,61
	473	1189,74	-9,56322E-001	-9,56314E-001	1,39752E-004	..........a	-327,61
	484	1217,35	-9,56303E-001	-9,56306E-001	1,39758E-004	..........a	-327,61
	495	1244,96	-9,56299E-001	-9,56294E-001	1,39085E-004	..........a	-327,61
	506	1272,57	-9,56287E-001	-9,56283E-001	1,31818E-004	..........a	-327,61
	517	1300,18	-9,56277E-001	-9,56276E-001	1,41578E-004	..........a	-327,61
	528	1327,79	-9,56271E-001	-9,56269E-001	1,44012E-004	..........a	-327,61
	539	1355,4	-9,56268E-001	-9,56267E-001	1,28985E-004	..........a	-327,61
	550	1383,01	-9,56265E-001	-9,56285E-001	1,35918E-004	..........a	-327,61
	561	1410,62	-9,56264E-001	-9,56252E-001	1,27898E-004	..........a	-327,61
	572	1438,23	-9,56235E-001	-9,56224E-001	1,27098E-004	..........a	-327,61
	583	1465,84	-9,56214E-001	-9,56195E-001	1,25632E-004	..........a	-327,61
	594	1493,45	-9,56167E-001	-9,56155E-001	1,27738E-004	..........a	-327,61
	605	1521,06	-9,56141E-001	-9,56147E-001	1,31265E-004	..........a	-327,61
	616	1548,67	-9,56127E-001	-9,56143E-001	1,28958E-004	..........a	-327,61
	627	1576,28	-9,56136E-001	-9,56144E-001	1,30525E-004	..........a	-327,61
	638	1603,89	-9,56137E-001	-9,56137E-001	1,22745E-004	..........a	-327,61
	649	1631,5	-9,56103E-001	-9,56091E-001	1,18812E-004	..........a	-327,61
	660	1659,11	-9,56077E-001	-9,56065E-001	1,18385E-004	..........a	-327,61
	671	1686,72	-9,56050E-001	-9,56044E-001	1,27765E-004	..........a	-327,61
	682	1714,33	-9,56014E-001	-9,56000E-001	1,24585E-004	..........a	-327,61
	693	1741,94	-9,55996E-001	-9,55985E-001	1,19085E-004	..........a	-327,61
	704	1769,55	-9,55968E-001	-9,55968E-001	1,26745E-004	..........a	-327,61
	715	1797,16	-9,55972E-001	-9,55967E-001	1,24198E-004	..........a	-327,61
	726	1824,77	-9,55951E-001	-9,55946E-001	1,22372E-004	..........a	-327,61
	737	1852,38	-9,55922E-001	-9,55918E-001	1,18238E-004	..........a	-327,61
	748	1879,99	-9,55900E-001	-9,55892E-001	1,16472E-004	..........a	-327,61
	759	1907,6	-9,55878E-001	-9,55868E-001	1,20272E-004	..........a	-327,61
	770	1935,21	-9,55845E-001	-9,55829E-001	1,15705E-004	..........a	-327,61
	781	1962,82	-9,55806E-001	-9,55797E-001	1,30378E-004	..........a	-327,61
	792	1990,43	-9,55772E-001	-9,55768E-001	1,34172E-004	..........a	-327,61
	803	2018,04	-9,55753E-001	-9,55743E-001	1,38872E-004	..........a	-327,61
	814	2045,65	-9,55732E-001	-9,55729E-001	1,38058E-004	..........a	-327,61
	825	2073,26	-9,55728E-001	-9,55719E-001	1,38925E-004	..........a	-327,61
	836	2100,87	-9,55694E-001	-9,55694E-001	1,51905E-004	..........a	-327,61
	847	2128,48	-9,55670E-001	-9,55677E-001	1,46745E-004	..........a	-327,61
	858	2156,09	-9,55650E-001	-9,55646E-001	1,54618E-004	..........a	-327,61
	869	2183,7	-9,55633E-001	-9,55627E-001	1,65678E-004	..........a	-327,61
	880	2211,31	-9,55606E-001	-9,55607E-001	1,65992E-004	..........a	-327,61
	891	2238,92	-9,55581E-001	-9,55574E-001	1,68292E-004	..........a	-327,61
	902	2266,53	-9,55564E-001	-9,55559E-001	1,69678E-004	..........a	-327,61
	913	2294,14	-9,55553E-001	-9,55593E-001	1,67532E-004	..........a	-327,61
	924	2321,75	-9,55579E-001	-9,55574E-001	1,67345E-004	..........a	-327,61
	935	2349,36	-9,55550E-001	-9,55529E-001	1,69812E-004	..........a	-327,61
	946	2376,97	-9,55498E-001	-9,55489E-001	1,73498E-004	..........a	-327,61
	957	2404,58	-9,55471E-001	-9,55466E-001	1,78165E-004	..........a	-327,61
	968	2432,19	-9,55443E-001	-9,55426E-001	1,79298E-004	..........a	-327,61
[...]
	24	38	198,6229	838,5304	-1182,704	1	1449,8	-54,66357	1,156214E-007	-0,953204	7
	25	40	158,3615	991,962	-1350,84	1	1675,935	-53,70906	1,17407E-007	-0,953199	7
	26	42	125,558	1177,832	-1537,047	1	1936,441	-52,53721	1,230092E-007	-0,953203	7
	27	43	100,4464	1386,8	-1728,203	1	2215,829	-51,25462	1,286346E-007	-0,953203	7
	28	45	79,00281	1647,608	-1945,51	1	2549,436	-49,73951	1,327845E-007	-0,953199	7
	29	47	62,77901	1936,074	-2161,928	1	2902,122	-48,15456	1,407152E-007	-0,9532	7
	30	48	45,07212	2422,115	-2483,15	1	3468,814	-45,71288	1,459242E-007	-0,953206	7
	31	50	38,42213	2689,29	-2639,448	1	3768,151	-44,4641	1,519772E-007	-0,953207	7
	32	51	31,25	3064,2	-2836,201	1	4175,327	-42,78712	1,549514E-007	-0,953201	7
	33	53	24,93351	3518,948	-3046,325	1	4654,362	-40,88248	1,550295E-007	-0,953201	7
	34	54	19,86229	4007,398	-3240,416	1	5153,594	-38,95929	1,715776E-007	-0,953123	7
	35	56	15,625	4580,254	-3421,478	1	5717,101	-36,75996	1,481789E-007	-0,953119	7
	36	57	12,40079	5168,808	-3557,092	1	6274,51	-34,53513	1,429222E-007	-0,953119	7
	37	59	9,93114	5758,828	-3650,852	1	6818,564	-32,37296	1,435735E-007	-0,953115	7
	38	60	7,944915	6373,203	-3699,822	1	7369,288	-30,13636	1,418502E-007	-0,953116	7
	39	62	6,317385	7003,943	-3700,738	1	7921,532	-27,85104	1,417841E-007	-0,953118	7
	40	64	5,008013	7636,801	-3644,724	1	8461,959	-25,51318	1,360231E-007	-0,953103	6
	41	67	3,945707	8255,371	-3545,703	1	8984,607	-23,24365	1,344626E-007	-0,953105	6
	42	70	3,158693	8796,479	-3410,153	1	9434,361	-21,18994	1,335354E-007	-0,953104	6
	43	74	2,504006	9321,779	-3241,16	1	9869,18	-19,17244	1,31599E-007	-0,953108	6
	44	79	1,998082	9767,32	-3083,083	1	10242,36	-17,51845	1,352998E-007	-0,953109	6
	45	84	1,584686	10186,92	-2904,537	1	10592,9	-15,91413	1,301635E-007	-0,953104	6
	46	90	1,266892	10536,66	-2746,752	1	10888,79	-14,61099	1,279713E-007	-0,953103	6
	47	98	0,999041	10865,41	-2605,691	1	11173,48	-13,48573	1,265506E-007	-0,953104	6
	48	104	0,7944915	11142,99	-2514,329	1	11423,14	-12,7154	1,247321E-007	-0,953102	6
	49	112	0,633446	11371,59	-2460,216	1	11634,68	-12,20766	1,261779E-007	-0,953098	6
	50	121	0,5040323	11605,92	-2464,733	1	11864,75	-11,98969	1,240378E-007	-0,9531	6
	51	132	0,3972458	11813,5	-2524,488	1	12080,22	-12,06241	1,262785E-007	-0,953099	6
	52	146	0,316723	12038,51	-2643,495	1	12325,33	-12,38482	1,25121E-007	-0,953099	6
	53	163	0,2506685	12272,06	-2835,674	1	12595,42	-13,01084	1,245473E-007	-0,953101	6
	54	185	0,1994681	12528,21	-3089,086	1	12903,43	-13,85116	1,245032E-007	-0,9531	6
	55	211	0,1583615	12828,61	-3410,921	1	13274,32	-14,88954	1,258467E-007	-0,953102	6
	56	242	0,1256702	13173,73	-3790,95	1	13708,34	-16,05401	1,283213E-007	-0,9531	6
	57	280	0,0999467	13630,29	-4219,714	1	14268,52	-17,20167	1,263635E-007	-0,953103	6
	58	322	0,0793147	14233,17	-4661,992	1	14977,23	-18,1359	1,249062E-007	-0,953099	6
	59	373	0,063004	14967,05	-5092,805	1	15809,78	-18,79179	1,223252E-007	-0,953096	6
	60	438	0,0500267	15825,78	-5407,461	1	16724,11	-18,86463	1,215553E-007	-0,953095	6
	61	520	0,0397246	16761,41	-5595,89	1	17670,85	-18,46187	1,170548E-007	-0,953086	6
	62	622	0,0315657	17717,31	-5484,023	1	18546,63	-17,19882	1,207005E-007	-0,953083	6
	63	750	0,0250668	18715,88	-5256,435	1	19440,01	-15,68763	1,149231E-007	-0,953083	6
	64	911	0,0199129	19599,16	-4885,982	1	20199,01	-13,99824	1,067175E-007	-0,953081	6
	65	1113	0,0158148	20272,14	-4335,049	1	20730,46	-12,07049	9,774139E-008	-0,953073	6
	66	1367	0,0125603	20944	-3617,167	1	21254,05	-9,7987	7,241955E-008	-0,953058	6
	67	1687	0,0099776	20700,29	-2554,642	1	20857,33	-7,035352	9,625984E-008	-0,953061	6