Folder: corrosionR/inst/extdata (part 3)

File: RP_Framework_version4_3.DTA
EXPLAIN
TAG	POLRES
TITLE	LABEL	Polarization Resistance	Test &Identifier
DATE	LABEL	7/21/2004	Date
TIME	LABEL	14:28:53	Time
NOTES	NOTES	1	&Notes...
	UDC2 Calibration Resistor 2000 ohms
PSTAT	PSTAT	PCI4	Potentiostat
VINIT	POTEN	-2.00000E-002	T	Initial &E (V)
VFINAL	POTEN	2.00000E-002	T	Final &E (V)
SCANRATE	QUANT	2.00000E-001	Scan Ra&te (mV/s)
SAMPLETIME	QUANT	1.00000E+000	Sa&mple Period (s)
AREA	QUANT	1.00000E+000	Sample &Area (cm^2)
DENSITY	QUANT	7.87000E+000	Densit&y (gm/cm^3)
EQUIV	QUANT	2.79200E+001	Equiv. &Wt
BETAA	QUANT	1.20000E-001	&Beta An.(V/Dec)
BETAC	QUANT	1.20000E-001	&Beta Cat.(V/Dec)
CONDIT	TWOPARAM	F	1.50000E+001	0.00000E+000	Conditionin&g	Time(s)	E(V)
DELAY	TWOPARAM	F	3.00000E+002	1.00000E-001	Init. De&lay	Time(s)	Stab.(mV/s)
IRCOMP	TOGGLE	F	IR Com&p
OCVCURVE	TABLE	39
	Pt	T	Vf	Vm	Ach	Over
	#	s	V vs. Ref.	V	V	bits
	0	0.258332	-1.37476E-004	3.05787E-005	1.37400E-004	......
	1	0.516663	-1.22476E-004	3.05787E-005	3.74000E-005	......
	2	0.774994	-9.04760E-005	3.05787E-005	-6.26000E-005	......
	3	1.03333	-9.94760E-005	3.05787E-005	-6.26000E-005	......
	4	1.29166	-7.09760E-005	3.05787E-005	3.74000E-005	......
	5	1.54999	-6.84760E-005	3.05787E-005	-1.62600E-004	......
	6	1.80832	-5.89760E-005	3.05787E-005	-1.62600E-004	......
	7	2.06665	-4.59760E-005	3.05787E-005	-1.62600E-004	......
	8	2.32498	-5.34760E-005	3.05787E-005	-6.26000E-005	......
	9	2.58332	-2.99760E-005	3.05787E-005	3.74000E-005	......
	10	2.84165	-2.64760E-005	3.05787E-005	3.74000E-005	......
	11	3.09998	-2.89760E-005	3.05787E-005	-6.26000E-005	......
	12	3.35831	-4.19760E-005	3.05787E-005	-6.26000E-005	......
	13	3.61664	-1.39760E-005	3.05787E-005	-1.62600E-004	......
	14	3.87497	-3.04760E-005	3.05787E-005	-6.26000E-005	......
	15	4.1333	-1.79760E-005	3.05787E-005	-6.26000E-005	......
	16	4.39164	-1.14760E-005	3.05787E-005	-6.26000E-005	......
	17	4.64997	-1.74760E-005	3.05787E-005	-6.26000E-005	......
	18	4.9083	2.39848E-008	3.05787E-005	3.74000E-005	......
	19	5.16663	-8.47601E-006	3.05787E-005	-1.62600E-004	......
	20	5.42496	-9.97601E-006	3.05787E-005	-6.26000E-005	......
	21	5.68329	-1.29760E-005	3.05787E-005	-1.62600E-004	......
	22	5.94162	-2.19760E-005	3.05787E-005	-6.26000E-005	......
	23	6.19996	-1.09760E-005	3.05787E-005	-1.62600E-004	......
	24	6.45829	-8.97602E-006	3.05787E-005	-6.26000E-005	......
	25	6.71662	-1.54760E-005	3.05787E-005	-6.26000E-005	......
	26	6.97495	1.52398E-006	3.05787E-005	3.74000E-005	......
	27	7.23328	-1.54760E-005	3.05787E-005	-1.62600E-004	......
	28	7.49161	-1.94760E-005	3.05787E-005	-6.26000E-005	......
	29	7.74995	-7.47602E-006	3.05787E-005	-1.62600E-004	......
	30	8.00828	-8.97602E-006	3.05787E-005	-6.26000E-005	......
	31	8.26661	-1.79760E-005	3.05787E-005	-2.62600E-004	......
	32	8.52494	-4.47601E-006	3.05787E-005	-1.62600E-004	......
	33	8.78327	-3.47601E-006	3.05787E-005	-1.62600E-004	......
	34	9.0416	-1.24760E-005	3.05787E-005	-1.62600E-004	......
	35	9.29993	-1.09760E-005	3.05787E-005	-1.62600E-004	......
	36	9.5583	5.23985E-007	3.05787E-005	-1.62600E-004	......
	37	9.8166	-1.24760E-005	3.05787E-005	-6.26000E-005	......
	38	10.0749	-1.19760E-005	3.05787E-005	3.74000E-005	......
EOC	QUANT	-1.1976E-005	Open Circuit (V)
PSTATMODEL	IQUANT	35	Pstat Model
PSTATSECTION	LABEL	PStat0	Pstat Section
CTRLMODE	IQUANT	1	Control Mode
IESTAB	IQUANT	1	I/E Stability
CASPEED	IQUANT	2	Control Amp Speed
CONVENTION	IQUANT	1	Current Convention
ICHRANGE	IQUANT	2	Ich Range
ICHRANGEMODE	TOGGLE	T	Ich Auto Range
ICHOFFSETENABLE	TOGGLE	F	Ich Offset Enable
ICHOFFSET	QUANT	0	Ich Offset (V)
ICHFILTER	IQUANT	3	Ich Filter
VCHRANGE	IQUANT	2	Vch Range
VCHRANGEMODE	TOGGLE	T	Vch Auto Range
VCHOFFSETENABLE	TOGGLE	F	Vch Offset Enable
VCHOFFSET	QUANT	0	Vch Offset (V)
VCHFILTER	IQUANT	3	Vch Filter
ACHRANGE	IQUANT	0	Ach Range
IERANGELOWERLIMIT	IQUANT	3	I/E Range Lower Limit
IERANGEMODE	TOGGLE	T	I/E AutoRange
IERANGE	IQUANT	7	I/E Range
POSFEEDENABLE	TOGGLE	F	Positive Feedback IR Comp
POSFEEDRESISTANCE	QUANT	0	Positive Feedback Resistance (ohm)
FC350IDIVISOR	IQUANT	0	FC350 I Divisor
FC350VRANGE	IQUANT	0	FC350 V Range
FRAMEWORKVERSION	QUANT	4.3	Framework Version
CURVE	TABLE	201
	Pt	T	Vf	Im	Vu	Sig	Ach	Over
	#	s	V vs. Ref.	A	V	V	V	bits
	0	0.99998	-2.00070E-002	-9.99790E-006	0.00000E+000	-2.00125E-002	-6.26000E-005	......
	2	2.99993	-1.95565E-002	-9.79790E-006	0.00000E+000	-1.96125E-002	3.74000E-005	......
	4	4.99988	-1.91535E-002	-9.59790E-006	0.00000E+000	-1.92125E-002	-6.26000E-005	......
	6	6.99983	-1.87695E-002	-9.39790E-006	0.00000E+000	-1.88125E-002	3.74000E-005	......
	8	8.99977	-1.83655E-002	-9.20040E-006	0.00000E+000	-1.84125E-002	3.74000E-005	......
	10	10.9997	-1.79675E-002	-8.99790E-006	0.00000E+000	-1.80125E-002	-6.26000E-005	......
	12	12.9997	-1.75675E-002	-8.79790E-006	0.00000E+000	-1.76125E-002	3.74000E-005	......
	14	14.9996	-1.71805E-002	-8.60040E-006	0.00000E+000	-1.72125E-002	3.74000E-005	......
	16	16.9996	-1.67695E-002	-8.39540E-006	0.00000E+000	-1.68125E-002	3.74000E-005	......
	18	18.9995	-1.63765E-002	-8.19790E-006	0.00000E+000	-1.64125E-002	-6.26000E-005	......
	20	20.9995	-1.59595E-002	-7.99540E-006	0.00000E+000	-1.60125E-002	-6.26000E-005	......
	22	22.9994	-1.55835E-002	-7.79290E-006	0.00000E+000	-1.56125E-002	-6.26000E-005	......
	24	24.9994	-1.51575E-002	-7.59540E-006	0.00000E+000	-1.52125E-002	3.74000E-005	......
	26	26.9993	-1.47665E-002	-7.39790E-006	0.00000E+000	-1.48125E-002	3.74000E-005	......
	28	28.9993	-1.43655E-002	-7.19790E-006	0.00000E+000	-1.44125E-002	-6.26000E-005	......
	30	30.9992	-1.39965E-002	-6.99790E-006	0.00000E+000	-1.40125E-002	3.74000E-005	......
	32	32.9992	-1.35625E-002	-6.79790E-006	0.00000E+000	-1.36125E-002	3.74000E-005	......
	34	34.9991	-1.31795E-002	-6.60290E-006	0.00000E+000	-1.32125E-002	3.74000E-005	......
	36	36.9991	-1.27685E-002	-6.39790E-006	0.00000E+000	-1.28125E-002	3.74000E-005	......
	38	38.999	-1.23825E-002	-6.19790E-006	0.00000E+000	-1.24125E-002	3.74000E-005	......
	40	40.999	-1.19615E-002	-5.99790E-006	0.00000E+000	-1.20125E-002	-6.26000E-005	......
	42	42.9989	-1.15755E-002	-5.79790E-006	0.00000E+000	-1.16125E-002	-6.26000E-005	......
	44	44.9989	-1.11795E-002	-5.59790E-006	0.00000E+000	-1.12125E-002	1.37400E-004	......
	46	46.9988	-1.07615E-002	-5.39790E-006	0.00000E+000	-1.08125E-002	-6.26000E-005	......
	48	48.9988	-1.03715E-002	-5.19790E-006	0.00000E+000	-1.04125E-002	3.74000E-005	......
	50	50.9987	-9.97448E-003	-4.99790E-006	0.00000E+000	-1.00125E-002	3.74000E-005	......
	52	52.9987	-9.56948E-003	-4.79540E-006	0.00000E+000	-9.61250E-003	3.74000E-005	......
	54	54.9986	-9.17548E-003	-4.60040E-006	0.00000E+000	-9.21250E-003	3.74000E-005	......
	56	56.9986	-8.78348E-003	-4.39790E-006	0.00000E+000	-8.81250E-003	-6.26000E-005	......
	58	58.9985	-8.37648E-003	-4.19790E-006	0.00000E+000	-8.41250E-003	3.74000E-005	......
	60	60.9985	-7.98348E-003	-4.00290E-006	0.00000E+000	-8.01250E-003	3.74000E-005	......
	62	62.9984	-7.59848E-003	-3.80290E-006	0.00000E+000	-7.61250E-003	-6.26000E-005	......
	64	64.9984	-7.19748E-003	-3.60290E-006	0.00000E+000	-7.21250E-003	1.37400E-004	......
	66	66.9983	-6.79848E-003	-3.40540E-006	0.00000E+000	-6.81250E-003	3.74000E-005	......
	68	68.9983	-6.38348E-003	-3.20290E-006	0.00000E+000	-6.41250E-003	3.74000E-005	......
	70	70.9982	-5.98048E-003	-3.00290E-006	0.00000E+000	-6.01250E-003	-6.26000E-005	......
[...]
	116	116.997	3.19552E-003	1.59710E-006	0.00000E+000	3.18750E-003	-6.26000E-005	......
	118	118.997	3.58852E-003	1.79460E-006	0.00000E+000	3.58750E-003	-1.62600E-004	......
	120	120.997	3.99552E-003	1.99710E-006	0.00000E+000	3.98750E-003	-6.26000E-005	......
	122	122.997	4.39152E-003	2.19710E-006	0.00000E+000	4.38750E-003	1.37400E-004	......
	124	124.997	4.78352E-003	2.39710E-006	0.00000E+000	4.78750E-003	1.37400E-004	......
	126	126.997	5.19152E-003	2.59460E-006	0.00000E+000	5.18750E-003	-1.62600E-004	......
	128	128.997	5.58652E-003	2.79460E-006	0.00000E+000	5.58750E-003	3.74000E-005	......
	130	130.997	5.99252E-003	2.98960E-006	0.00000E+000	5.98750E-003	3.74000E-005	......
	132	132.997	6.40352E-003	3.19210E-006	0.00000E+000	6.38750E-003	1.37400E-004	......
	134	134.997	6.80152E-003	3.39210E-006	0.00000E+000	6.78750E-003	3.74000E-005	......
	136	136.997	7.19952E-003	3.59460E-006	0.00000E+000	7.18750E-003	3.74000E-005	......
	138	138.997	7.58352E-003	3.79210E-006	0.00000E+000	7.58750E-003	-6.26000E-005	......
	140	140.996	7.98652E-003	3.99710E-006	0.00000E+000	7.98750E-003	1.37400E-004	......
	142	142.996	8.39452E-003	4.19460E-006	0.00000E+000	8.38750E-003	3.74000E-005	......
	144	144.996	8.78952E-003	4.39210E-006	0.00000E+000	8.78750E-003	1.37400E-004	......
	146	146.996	9.18452E-003	4.59460E-006	0.00000E+000	9.18750E-003	3.74000E-005	......
	148	148.996	9.59552E-003	4.79210E-006	0.00000E+000	9.58750E-003	1.37400E-004	......
	150	150.996	9.98452E-003	4.98960E-006	0.00000E+000	9.98750E-003	1.37400E-004	......
	152	152.996	1.03805E-002	5.19210E-006	0.00000E+000	1.03875E-002	1.37400E-004	......
	154	154.996	1.07815E-002	5.39210E-006	0.00000E+000	1.07875E-002	3.74000E-005	......
	156	156.996	1.11805E-002	5.59210E-006	0.00000E+000	1.11875E-002	3.74000E-005	......
	158	158.996	1.15865E-002	5.78960E-006	0.00000E+000	1.15875E-002	3.74000E-005	......
	160	160.996	1.19835E-002	5.99210E-006	0.00000E+000	1.19875E-002	3.74000E-005	......
	162	162.996	1.23795E-002	6.18710E-006	0.00000E+000	1.23875E-002	1.37400E-004	......
	164	164.996	1.27785E-002	6.38710E-006	0.00000E+000	1.27875E-002	-6.26000E-005	......
	166	166.996	1.31665E-002	6.58960E-006	0.00000E+000	1.31875E-002	3.74000E-005	......
	168	168.996	1.35585E-002	6.78960E-006	0.00000E+000	1.35875E-002	-6.26000E-005	......
	170	170.996	1.39715E-002	6.98460E-006	0.00000E+000	1.39875E-002	3.74000E-005	......
	172	172.996	1.43625E-002	7.18710E-006	0.00000E+000	1.43875E-002	3.74000E-005	......
	174	174.996	1.47675E-002	7.38460E-006	0.00000E+000	1.47875E-002	3.74000E-005	......
	176	176.996	1.51675E-002	7.58710E-006	0.00000E+000	1.51875E-002	3.74000E-005	......
	178	178.996	1.55695E-002	7.78460E-006	0.00000E+000	1.55875E-002	3.74000E-005	......
	180	180.995	1.59695E-002	7.98210E-006	0.00000E+000	1.59875E-002	1.37400E-004	......
	182	182.995	1.63655E-002	8.18210E-006	0.00000E+000	1.63875E-002	1.37400E-004	......
	184	184.995	1.67595E-002	8.38210E-006	0.00000E+000	1.67875E-002	1.37400E-004	......
	186	186.995	1.71465E-002	8.57960E-006	0.00000E+000	1.71875E-002	1.37400E-004	......
	188	188.995	1.75615E-002	8.78210E-006	0.00000E+000	1.75875E-002	3.74000E-005	......
	190	190.995	1.79475E-002	8.97960E-006	0.00000E+000	1.79875E-002	-6.26000E-005	......
	192	192.995	1.83505E-002	9.18210E-006	0.00000E+000	1.83875E-002	-6.26000E-005	......
	194	194.995	1.87605E-002	9.38210E-006	0.00000E+000	1.87875E-002	-6.26000E-005	......
	196	196.995	1.91655E-002	9.58210E-006	0.00000E+000	1.91875E-002	3.74000E-005	......
	198	198.995	1.95575E-002	9.78210E-006	0.00000E+000	1.95875E-002	1.37400E-004	......
	200	200.995	1.99535E-002	9.97960E-006	0.00000E+000	1.99875E-002	1.37400E-004	......